File: projects/uvvis_analysis/PolymerB/PolymerB_1.txt
"RawData"
"Wavelength nm."	"Abs."
200.00
201.00
202.00
203.00
204.00
205.00
206.00
207.00
208.00
209.00
210.00
211.00
212.00
213.00
214.00
215.00
216.00
217.00
218.00
219.00
220.00
221.00
222.00
223.00
224.00
225.00
226.00
227.00
228.00
229.00
230.00
231.00
232.00
233.00
234.00
235.00
236.00
237.00
238.00
239.00
240.00
241.00
242.00
243.00
244.00
245.00
246.00
247.00
248.00
249.00
250.00	0.607327
251.00	0.590138
252.00	0.566409
253.00	0.539516
254.00	0.510304
255.00	0.480538
256.00	0.450268
257.00	0.422823
258.00	0.397225
259.00	0.372788
260.00	0.353322
261.00	0.335488
262.00	0.319507
263.00	0.308757
264.00	0.297943
265.00	0.291537
266.00	0.286310
267.00	0.283060
268.00	0.281898
269.00	0.281745
270.00	0.282885
271.00	0.286616
272.00	0.291300
273.00	0.297287
274.00	0.303706
275.00	0.312571
276.00	0.322440
277.00	0.334029
278.00	0.345867
279.00	0.359998
280.00	0.375474
281.00	0.392546
282.00	0.410377
283.00	0.430250
284.00	0.451489
285.00	0.474427
286.00	0.499186
287.00	0.522930
288.00	0.549554
289.00	0.577876
290.00	0.608207
291.00	0.638906
292.00	0.674336
293.00	0.706575
294.00	0.742721
295.00	0.777189
296.00	0.813722
297.00	0.848860
298.00	0.884129
299.00	0.921766
300.00	0.956487
301.00	0.989301
302.00	1.024004
303.00	1.059247
304.00	1.095519
305.00	1.130625
306.00	1.164877
307.00	1.192782
308.00	1.216926
309.00	1.238683
310.00	1.257241
311.00	1.274870
312.00	1.286728
313.00	1.291762
314.00	1.296110
315.00	1.297488
316.00	1.304288
317.00	1.314000
318.00	1.329393
319.00	1.340524
320.00	1.343508
321.00	1.338414
322.00	1.322129
323.00	1.299030
324.00	1.276430
325.00	1.253234
326.00	1.232703
327.00	1.216859
328.00	1.206815
329.00	1.198986
330.00	1.196752
331.00	1.193575
332.00	1.193238
333.00	1.191028
334.00	1.191168
335.00	1.185705
336.00	1.177449
337.00	1.160737
338.00	1.140207
339.00	1.111824
340.00	1.076720
341.00	1.036367
342.00	0.985575
343.00	0.929899
344.00	0.868719
345.00	0.805936
346.00	0.741511
347.00	0.676316
348.00	0.613978
349.00	0.556518
350.00	0.503244
351.00	0.455564
352.00	0.413618
353.00	0.378481
354.00	0.348508
355.00	0.323479
356.00	0.303065
357.00	0.287042
358.00	0.275683
359.00	0.267943
360.00	0.263535
361.00	0.259933
362.00	0.258900
363.00	0.259767
364.00	0.261672
365.00	0.265127
366.00	0.268626
367.00	0.273708
368.00	0.278664
369.00	0.285642
370.00	0.292422
371.00	0.298855
372.00	0.306603
373.00	0.314354
374.00	0.322595
375.00	0.331354
376.00	0.341267
377.00	0.350349
378.00	0.359787
379.00	0.369836
380.00	0.379197
381.00	0.389151
382.00	0.400227
383.00	0.411085
384.00	0.421473
385.00	0.432684
386.00	0.444634
387.00	0.456288
388.00	0.468693
389.00	0.480366
390.00	0.493213
391.00	0.506700
392.00	0.519117
393.00	0.532405
394.00	0.545155
395.00	0.559075
396.00	0.572643
397.00	0.586216
398.00	0.600236
399.00	0.615180
400.00	0.629580
401.00	0.644158
402.00	0.660063
403.00	0.675868
404.00	0.692736
405.00	0.708969
406.00	0.723866
407.00	0.740194
408.00	0.757361
409.00	0.775142
410.00	0.792558
411.00	0.810629
412.00	0.829169
413.00	0.847531
414.00	0.864988
415.00	0.882852
416.00	0.901787
417.00	0.920492
418.00	0.938939
419.00	0.958318
420.00	0.977092
421.00	0.996072
422.00	1.015223
423.00	1.033370
424.00	1.051711
425.00	1.070001
426.00	1.087469
427.00	1.105196
428.00	1.123909
429.00	1.140280
430.00	1.156817
431.00	1.174663
432.00	1.190979
433.00	1.206360
434.00	1.221576
435.00	1.235875
436.00	1.250224
437.00	1.264168
438.00	1.275641
439.00	1.288171
440.00	1.299487
441.00	1.309017
442.00	1.318135
443.00	1.326431
444.00	1.334726
445.00	1.340145
446.00	1.345643
447.00	1.349792
448.00	1.353063
449.00	1.355180
450.00	1.355135
451.00	1.354553
452.00	1.352018
453.00	1.348384
454.00	1.342414
455.00	1.334615
456.00	1.324818
457.00	1.314365
458.00	1.301688
459.00	1.285948
460.00	1.269450
461.00	1.250374
462.00	1.229882
463.00	1.207528
464.00	1.182358
465.00	1.155800
466.00	1.126819
467.00	1.095048
468.00	1.062853
469.00	1.029866
470.00	0.993532
471.00	0.959061
472.00	0.922275
473.00	0.883708
474.00	0.844940
475.00	0.805334
476.00	0.764933
477.00	0.725830
478.00	0.686320
479.00	0.646179
480.00	0.607074
481.00	0.569046
482.00	0.531322
483.00	0.495098
484.00	0.460189
485.00	0.426126
486.00	0.394070
487.00	0.363403
488.00	0.333591
489.00	0.305560
490.00	0.279887
491.00	0.255280
492.00	0.232264
493.00	0.210573
494.00	0.189625
495.00	0.170327
496.00	0.152222
497.00	0.137377
498.00	0.122791
499.00	0.109087
500.00	0.096762
501.00	0.085349
502.00	0.074660
503.00	0.065298
504.00	0.057086
505.00	0.049567
506.00	0.042873
507.00	0.036731
508.00	0.031466
509.00	0.026575
510.00	0.022273
511.00	0.018524
512.00	0.014836
513.00	0.011927
514.00	0.009458
515.00	0.007271
516.00	0.005061
517.00	0.003475
518.00	0.001993
519.00	0.000514
520.00	-0.000576
521.00	-0.001659
522.00	-0.002669
523.00	-0.003356
524.00	-0.003968
525.00	-0.004635
526.00	-0.005086
527.00	-0.005410
528.00	-0.006067
529.00	-0.006158
530.00	-0.006435
531.00	-0.006933
532.00	-0.006882
533.00	-0.007084
534.00	-0.007313
535.00	-0.007304
536.00	-0.007285
537.00	-0.008251
538.00	-0.008493
539.00	-0.008268
540.00	-0.008624
541.00	-0.008295
542.00	-0.008602
543.00	-0.008467
544.00	-0.008438
545.00	-0.008372
546.00	-0.008241
547.00	-0.008372
548.00	-0.008288
549.00	-0.008235
550.00	-0.008131
551.00	-0.008282
552.00	-0.008280
553.00	-0.008254
554.00	-0.008420
555.00	-0.008184
556.00	-0.008135
557.00	-0.008120
558.00	-0.008012
559.00	-0.008082
560.00	-0.007869
561.00	-0.008126
562.00	-0.007942
563.00	-0.007980
564.00	-0.007774
565.00	-0.007706
566.00	-0.007708
567.00	-0.007658
568.00	-0.007573
569.00	-0.007566
570.00	-0.007732
571.00	-0.007600
572.00	-0.007470
573.00	-0.007353
574.00	-0.007489
575.00	-0.007412
576.00	-0.007427
577.00	-0.007409
578.00	-0.007414
579.00	-0.007320
580.00	-0.007327
581.00	-0.007246
582.00	-0.007231
583.00	-0.007045
584.00	-0.007296
585.00	-0.007042
586.00	-0.006919
587.00	-0.006896
588.00	-0.006895
589.00	-0.006684
590.00	-0.006843
591.00	-0.006629
592.00	-0.006778
593.00	-0.006429
594.00	-0.006400
595.00	-0.006652
596.00	-0.006375
597.00	-0.006506
598.00	-0.006365
599.00	-0.006407
600.00	-0.006397
601.00	-0.006255
602.00	-0.006184
603.00	-0.006406
604.00	-0.006256
605.00	-0.006239
606.00	-0.006217
607.00	-0.006125
608.00	-0.006164
609.00	-0.005981
610.00	-0.005962
611.00	-0.006096
612.00	-0.006034
613.00	-0.005738
614.00	-0.005863
615.00	-0.005521
616.00	-0.005681
617.00	-0.005510
618.00	-0.005604
619.00	-0.005468
620.00	-0.005772
621.00	-0.005373
622.00	-0.005287
623.00	-0.005347
624.00	-0.005483
625.00	-0.005242
626.00	-0.005652
627.00	-0.005333
628.00	-0.005055
629.00	-0.005066
630.00	-0.005211
631.00	-0.005107
632.00	-0.005160
633.00	-0.005015
634.00	-0.005081
635.00	-0.005300
636.00	-0.004838
637.00	-0.004752
638.00	-0.004732
639.00	-0.004768
640.00	-0.004459
641.00	-0.004639
642.00	-0.004492
643.00	-0.004481
644.00	-0.004631
645.00	-0.004313
646.00	-0.004329
647.00	-0.004321
648.00	-0.004381
649.00	-0.004211
650.00	-0.004275
651.00	-0.004167
652.00	-0.004187
653.00	-0.003995
654.00	-0.004197
655.00	-0.004160
656.00	-0.003891
657.00	-0.004100
658.00	-0.003938
659.00	-0.004041
660.00	-0.004172
661.00	-0.003788
662.00	-0.004218
663.00	-0.003946
664.00	-0.004020
665.00	-0.003848
666.00	-0.003680
667.00	-0.003594
668.00	-0.003878
669.00	-0.003565
670.00	-0.003791
671.00	-0.003770
672.00	-0.003492
673.00	-0.003360
674.00	-0.003481
675.00	-0.003318
676.00	-0.003135
677.00	-0.003344
678.00	-0.003167
679.00	-0.003323
680.00	-0.003141
681.00	-0.003283
682.00	-0.003224
683.00	-0.003360
684.00	-0.002891
685.00	-0.002916
686.00	-0.003092
687.00	-0.003010
688.00	-0.002730
689.00	-0.002838
690.00	-0.002917
691.00	-0.002868
692.00	-0.002579
693.00	-0.002761
694.00	-0.002623
695.00	-0.002662
696.00	-0.002528
697.00	-0.002468
698.00	-0.002354
699.00	-0.002391
700.00	-0.002505
701.00
702.00
703.00
704.00
705.00
706.00
707.00
708.00
709.00
710.00
711.00
712.00
713.00
714.00
715.00
716.00
717.00
718.00
719.00
720.00
721.00
722.00
723.00
724.00
725.00
726.00
727.00
728.00
729.00
730.00
731.00
732.00
733.00
734.00
735.00
736.00
737.00
738.00
739.00
740.00
741.00
742.00
743.00
744.00
745.00
746.00
747.00
748.00
749.00
750.00
751.00
752.00
753.00
754.00
755.00
756.00
757.00
758.00
759.00
760.00
761.00
762.00
763.00
764.00
765.00
766.00
767.00
768.00
769.00
770.00
771.00
772.00
773.00
774.00
775.00
776.00
777.00
778.00
779.00
780.00
781.00
782.00
783.00
784.00
785.00
786.00
787.00
788.00
789.00
790.00
791.00
792.00
793.00
794.00
795.00
796.00
797.00
798.00
799.00
800.00
801.00
802.00
803.00
804.00
805.00
806.00
807.00
808.00
809.00
810.00
811.00
812.00
813.00
814.00
815.00
816.00
817.00
818.00
819.00
820.00
821.00
822.00
823.00
824.00
825.00
826.00
827.00
828.00
829.00
830.00
831.00
832.00
833.00
834.00
835.00
836.00
837.00
838.00
839.00
840.00
841.00
842.00
843.00
844.00
845.00
846.00
847.00
848.00
849.00
850.00
851.00
852.00
853.00
854.00
855.00
856.00
857.00
858.00
859.00
860.00
861.00
862.00
863.00
864.00
865.00
866.00
867.00
868.00
869.00
870.00
871.00
872.00
873.00
874.00
875.00
876.00
877.00
878.00
879.00
880.00
881.00
882.00
883.00
884.00
885.00
886.00
887.00
888.00
889.00
890.00
891.00
892.00
893.00
894.00
895.00
896.00
897.00
898.00
899.00
900.00