File: projects/uvvis_analysis/PolymerA/PolymerA_3.txt
"RawData"
"Wavelength nm."	"Abs."
300.00	0.098539
301.00	0.096800
302.00	0.096063
303.00	0.094181
304.00	0.092925
305.00	0.092032
306.00	0.091091
307.00	0.091763
308.00	0.089673
309.00	0.088543
310.00	0.087047
311.00	0.086866
312.00	0.085561
313.00	0.084748
314.00	0.083820
315.00	0.082635
316.00	0.081857
317.00	0.080583
318.00	0.080076
319.00	0.079037
320.00	0.078284
321.00	0.076950
322.00	0.077132
323.00	0.076721
324.00	0.075644
325.00	0.074976
326.00	0.074353
327.00	0.072640
328.00	0.073814
329.00	0.074167
330.00	0.073499
331.00	0.073583
332.00	0.073661
333.00	0.072699
334.00	0.072965
335.00	0.073424
336.00	0.073730
337.00	0.073471
338.00	0.074056
339.00	0.073659
340.00	0.074423
341.00	0.073692
342.00	0.072659
343.00	0.074365
344.00	0.074779
345.00	0.074017
346.00	0.075138
347.00	0.074547
348.00	0.075652
349.00	0.074532
350.00	0.075006
351.00	0.075011
352.00	0.075618
353.00	0.075303
354.00	0.074928
355.00	0.075665
356.00	0.075395
357.00	0.075828
358.00	0.076459
359.00	0.076125
360.00	0.077222
361.00	0.077478
362.00	0.077946
363.00	0.077682
364.00	0.078225
365.00	0.078568
366.00	0.079471
367.00	0.080069
368.00	0.080524
369.00	0.081136
370.00	0.082247
371.00	0.082510
372.00	0.083297
373.00	0.083965
374.00	0.085147
375.00	0.085594
376.00	0.086810
377.00	0.087160
378.00	0.088209
379.00	0.089571
380.00	0.090513
381.00	0.091610
382.00	0.092470
383.00	0.093440
384.00	0.094543
385.00	0.096406
386.00	0.097797
387.00	0.098874
388.00	0.100945
389.00	0.102213
390.00	0.103356
391.00	0.105527
392.00	0.106763
393.00	0.108300
394.00	0.110365
395.00	0.112092
396.00	0.113582
397.00	0.115517
398.00	0.116926
399.00	0.118915
400.00	0.120988
401.00	0.122913
402.00	0.125085
403.00	0.126789
404.00	0.128974
405.00	0.131167
406.00	0.132942
407.00	0.135093
408.00	0.138085
409.00	0.139493
410.00	0.141871
411.00	0.144479
412.00	0.146711
413.00	0.148969
414.00	0.151229
415.00	0.153752
416.00	0.155984
417.00	0.158917
418.00	0.160599
419.00	0.162877
420.00	0.165133
421.00	0.167736
422.00	0.169901
423.00	0.171670
424.00	0.173966
425.00	0.175838
426.00	0.178357
427.00	0.180469
428.00	0.182655
429.00	0.184506
430.00	0.186393
431.00	0.188394
432.00	0.190128
433.00	0.192331
434.00	0.194005
435.00	0.195485
436.00	0.197159
437.00	0.198582
438.00	0.199995
439.00	0.201186
440.00	0.202203
441.00	0.203456
442.00	0.204355
443.00	0.205288
444.00	0.205458
445.00	0.205938
446.00	0.206319
447.00	0.206860
448.00	0.206570
449.00	0.206524
450.00	0.206219
451.00	0.205430
452.00	0.205220
453.00	0.204331
454.00	0.203757
455.00	0.202563
456.00	0.201364
457.00	0.199911
458.00	0.198493
459.00	0.196726
460.00	0.194988
461.00	0.193202
462.00	0.190832
463.00	0.188757
464.00	0.186694
465.00	0.184176
466.00	0.181597
467.00	0.178753
468.00	0.175572
469.00	0.172498
470.00	0.169459
471.00	0.166011
472.00	0.162665
473.00	0.159013
474.00	0.154850
475.00	0.150772
476.00	0.146144
477.00	0.142290
478.00	0.137499
479.00	0.132943
480.00	0.127992
481.00	0.123040
482.00	0.118010
483.00	0.112886
484.00	0.107641
485.00	0.102348
486.00	0.097258
487.00	0.092392
488.00	0.086991
489.00	0.082081
490.00	0.077094
491.00	0.072233
492.00	0.067588
493.00	0.062629
494.00	0.058253
495.00	0.053992
496.00	0.049908
497.00	0.046218
498.00	0.042982
499.00	0.039413
500.00	0.036161
501.00	0.033314
502.00	0.030742
503.00	0.028334
504.00	0.025984
505.00	0.023988
506.00	0.022322
507.00	0.020693
508.00	0.019629
509.00	0.018069
510.00	0.017073
511.00	0.015951
512.00	0.015298
513.00	0.014580
514.00	0.013969
515.00	0.013511
516.00	0.013042
517.00	0.012889
518.00	0.012452
519.00	0.012369
520.00	0.011934
521.00	0.011606
522.00	0.011578
523.00	0.011653
524.00	0.011339
525.00	0.011256
526.00	0.011088
527.00	0.011210
528.00	0.011055
529.00	0.010931
530.00	0.011204
531.00	0.010971
532.00	0.011147
533.00	0.010981
534.00	0.010855
535.00	0.010809
536.00	0.011118
537.00	0.010515
538.00	0.010289
539.00	0.010659
540.00	0.010478
541.00	0.010421
542.00	0.010598
543.00	0.010226
544.00	0.010546
545.00	0.010481
546.00	0.010277
547.00	0.010339
548.00	0.010473
549.00	0.010389
550.00	0.010546
551.00	0.010302
552.00	0.010300
553.00	0.010418
554.00	0.010327
555.00	0.010525
556.00	0.010206
557.00	0.010340
558.00	0.010392
559.00	0.010602
560.00	0.010485
561.00	0.010274
562.00	0.010320
563.00	0.010217
564.00	0.010201
565.00	0.010159
566.00	0.010394
567.00	0.010202
568.00	0.009977
569.00	0.010246
570.00	0.010119
571.00	0.010111
572.00	0.010096
573.00	0.010228
574.00	0.010076
575.00	0.010275
576.00	0.010366
577.00	0.010248
578.00	0.010345
579.00	0.010113
580.00	0.010048
581.00	0.010225
582.00	0.010138
583.00	0.010047
584.00	0.010065
585.00	0.009812
586.00	0.009913
587.00	0.009865
588.00	0.010013
589.00	0.009934
590.00	0.010096
591.00	0.009973
592.00	0.009956
593.00	0.010197
594.00	0.009736
595.00	0.009947
596.00	0.009977
597.00	0.009846
598.00	0.009644
599.00	0.009846
600.00	0.009851
601.00	0.009852
602.00	0.009539
603.00	0.009802
604.00	0.009859
605.00	0.009806
606.00	0.009715
607.00	0.009750
608.00	0.009774
609.00	0.009778
610.00	0.009818
611.00	0.009641
612.00	0.010026
613.00	0.009627
614.00	0.009558
615.00	0.009585
616.00	0.009584
617.00	0.009900
618.00	0.009711
619.00	0.009675
620.00	0.009773
621.00	0.009551
622.00	0.009584
623.00	0.009523
624.00	0.009779
625.00	0.009863
626.00	0.009857
627.00	0.009678
628.00	0.009647
629.00	0.009545
630.00	0.009760
631.00	0.009648
632.00	0.009818
633.00	0.009652
634.00	0.009589
635.00	0.009678
636.00	0.009704
637.00	0.009768
638.00	0.009816
639.00	0.009734
640.00	0.009590
641.00	0.009676
642.00	0.009715
643.00	0.009601
644.00	0.009663
645.00	0.009506
646.00	0.009547
647.00	0.009593
648.00	0.009456
649.00	0.009246
650.00	0.009307
651.00	0.009646
652.00	0.009406
653.00	0.009732
654.00	0.009369
655.00	0.009326
656.00	0.009534
657.00	0.009349
658.00	0.009475
659.00	0.009266
660.00	0.009468
661.00	0.009173
662.00	0.009499
663.00	0.009477
664.00	0.009378
665.00	0.009467
666.00	0.009088
667.00	0.009093
668.00	0.009494
669.00	0.009338
670.00	0.009223
671.00	0.009244
672.00	0.009514
673.00	0.009210
674.00	0.009303
675.00	0.009421
676.00	0.009129
677.00	0.009402
678.00	0.009443
679.00	0.009317
680.00	0.009377
681.00	0.009338
682.00	0.008968
683.00	0.009144
684.00	0.009256
685.00	0.009441
686.00	0.009201
687.00	0.009478
688.00	0.008900
689.00	0.009120
690.00	0.009153
691.00	0.009192
692.00	0.009450
693.00	0.009136
694.00	0.009170
695.00	0.009307
696.00	0.009470
697.00	0.009151
698.00	0.009078
699.00	0.008984
700.00	0.009184
701.00
702.00
703.00
704.00
705.00
706.00
707.00
708.00
709.00
710.00
711.00
712.00
713.00
714.00
715.00
716.00
717.00
718.00
719.00
720.00
721.00
722.00
723.00
724.00
725.00
726.00
727.00
728.00
729.00
730.00
731.00
732.00
733.00
734.00
735.00
736.00
737.00
738.00
739.00
740.00
741.00
742.00
743.00
744.00
745.00
746.00
747.00
748.00
749.00
750.00
751.00
752.00
753.00
754.00
755.00
756.00
757.00
758.00
759.00
760.00
761.00
762.00
763.00
764.00
765.00
766.00
767.00
768.00
769.00
770.00
771.00
772.00
773.00
774.00
775.00
776.00
777.00
778.00
779.00
780.00
781.00
782.00
783.00
784.00
785.00
786.00
787.00
788.00
789.00
790.00
791.00
792.00
793.00
794.00
795.00
796.00
797.00
798.00
799.00
800.00
801.00
802.00
803.00
804.00
805.00
806.00
807.00
808.00
809.00
810.00
811.00
812.00
813.00
814.00
815.00
816.00
817.00
818.00
819.00
820.00
821.00
822.00
823.00
824.00
825.00
826.00
827.00
828.00
829.00
830.00
831.00
832.00
833.00
834.00
835.00
836.00
837.00
838.00
839.00
840.00
841.00
842.00
843.00
844.00
845.00
846.00
847.00
848.00
849.00
850.00
851.00
852.00
853.00
854.00
855.00
856.00
857.00
858.00
859.00
860.00
861.00
862.00
863.00
864.00
865.00
866.00
867.00
868.00
869.00
870.00
871.00
872.00
873.00
874.00
875.00
876.00
877.00
878.00
879.00
880.00
881.00
882.00
883.00
884.00
885.00
886.00
887.00
888.00
889.00
890.00
891.00
892.00
893.00
894.00
895.00
896.00
897.00
898.00
899.00
900.00