File: phd_uvvis_analysis/PolymerA/PolymerA_5.txt
"RawData"
"Wavelength nm."	"Abs."
300.00	0.051875
301.00	0.051658
302.00	0.050884
303.00	0.050236
304.00	0.048706
305.00	0.047735
306.00	0.048337
307.00	0.048064
308.00	0.047194
309.00	0.046887
310.00	0.045470
311.00	0.046201
312.00	0.045593
313.00	0.044684
314.00	0.043896
315.00	0.043778
316.00	0.043807
317.00	0.042213
318.00	0.042255
319.00	0.042640
320.00	0.041690
321.00	0.042260
322.00	0.041525
323.00	0.041251
324.00	0.041561
325.00	0.040321
326.00	0.041189
327.00	0.039882
328.00	0.040425
329.00	0.040954
330.00	0.040881
331.00	0.040059
332.00	0.039796
333.00	0.039978
334.00	0.039885
335.00	0.039802
336.00	0.039699
337.00	0.039936
338.00	0.040296
339.00	0.039348
340.00	0.038568
341.00	0.039547
342.00	0.038034
343.00	0.039432
344.00	0.039146
345.00	0.038655
346.00	0.039287
347.00	0.038779
348.00	0.039363
349.00	0.038469
350.00	0.038789
351.00	0.038778
352.00	0.038803
353.00	0.038216
354.00	0.038211
355.00	0.037957
356.00	0.037898
357.00	0.038047
358.00	0.037881
359.00	0.036897
360.00	0.037769
361.00	0.037493
362.00	0.038053
363.00	0.037682
364.00	0.037372
365.00	0.036985
366.00	0.037423
367.00	0.037540
368.00	0.037030
369.00	0.037065
370.00	0.037684
371.00	0.038005
372.00	0.036835
373.00	0.036368
374.00	0.035910
375.00	0.035951
376.00	0.036178
377.00	0.036175
378.00	0.036306
379.00	0.036314
380.00	0.036403
381.00	0.036702
382.00	0.036668
383.00	0.037079
384.00	0.036744
385.00	0.037325
386.00	0.037604
387.00	0.037700
388.00	0.037987
389.00	0.038328
390.00	0.037862
391.00	0.038619
392.00	0.038998
393.00	0.038969
394.00	0.039503
395.00	0.039552
396.00	0.040041
397.00	0.040604
398.00	0.040603
399.00	0.040831
400.00	0.041414
401.00	0.041841
402.00	0.042141
403.00	0.042521
404.00	0.043219
405.00	0.043252
406.00	0.043796
407.00	0.043763
408.00	0.044649
409.00	0.045132
410.00	0.045415
411.00	0.046135
412.00	0.046474
413.00	0.046439
414.00	0.046871
415.00	0.047605
416.00	0.048064
417.00	0.047881
418.00	0.047873
419.00	0.048525
420.00	0.048579
421.00	0.049490
422.00	0.049390
423.00	0.049868
424.00	0.050131
425.00	0.050255
426.00	0.051130
427.00	0.051638
428.00	0.051833
429.00	0.052201
430.00	0.052442
431.00	0.053067
432.00	0.053217
433.00	0.053883
434.00	0.054157
435.00	0.054286
436.00	0.054375
437.00	0.054656
438.00	0.055314
439.00	0.055499
440.00	0.055324
441.00	0.055816
442.00	0.056047
443.00	0.055931
444.00	0.055862
445.00	0.055783
446.00	0.055920
447.00	0.056148
448.00	0.056047
449.00	0.055687
450.00	0.055612
451.00	0.055577
452.00	0.055266
453.00	0.055406
454.00	0.055034
455.00	0.054907
456.00	0.054387
457.00	0.054224
458.00	0.053701
459.00	0.053708
460.00	0.053168
461.00	0.052895
462.00	0.052211
463.00	0.051858
464.00	0.051503
465.00	0.050548
466.00	0.050499
467.00	0.049747
468.00	0.049049
469.00	0.048268
470.00	0.047456
471.00	0.046905
472.00	0.046224
473.00	0.045445
474.00	0.044361
475.00	0.043635
476.00	0.042514
477.00	0.041880
478.00	0.040823
479.00	0.039985
480.00	0.038415
481.00	0.037712
482.00	0.036885
483.00	0.035553
484.00	0.034413
485.00	0.033373
486.00	0.032329
487.00	0.031276
488.00	0.030317
489.00	0.029113
490.00	0.028049
491.00	0.027062
492.00	0.025973
493.00	0.025354
494.00	0.024225
495.00	0.023329
496.00	0.022600
497.00	0.021698
498.00	0.021070
499.00	0.020277
500.00	0.019568
501.00	0.019073
502.00	0.018620
503.00	0.018045
504.00	0.017418
505.00	0.017084
506.00	0.016572
507.00	0.016319
508.00	0.016332
509.00	0.015858
510.00	0.015414
511.00	0.015225
512.00	0.015190
513.00	0.015025
514.00	0.014743
515.00	0.014676
516.00	0.014605
517.00	0.014575
518.00	0.014486
519.00	0.014476
520.00	0.014216
521.00	0.014213
522.00	0.014051
523.00	0.014247
524.00	0.014374
525.00	0.013999
526.00	0.014155
527.00	0.014229
528.00	0.014088
529.00	0.013958
530.00	0.014143
531.00	0.013718
532.00	0.014022
533.00	0.013779
534.00	0.013814
535.00	0.013933
536.00	0.013826
537.00	0.013380
538.00	0.013277
539.00	0.013612
540.00	0.013434
541.00	0.013275
542.00	0.013319
543.00	0.013092
544.00	0.013241
545.00	0.013327
546.00	0.013277
547.00	0.013319
548.00	0.013224
549.00	0.013322
550.00	0.013182
551.00	0.013260
552.00	0.013219
553.00	0.012815
554.00	0.013046
555.00	0.013173
556.00	0.012956
557.00	0.012921
558.00	0.012822
559.00	0.013298
560.00	0.013124
561.00	0.013083
562.00	0.012878
563.00	0.012684
564.00	0.012748
565.00	0.012791
566.00	0.012758
567.00	0.012664
568.00	0.012403
569.00	0.012569
570.00	0.012559
571.00	0.012520
572.00	0.012606
573.00	0.012604
574.00	0.012405
575.00	0.012583
576.00	0.012493
577.00	0.012707
578.00	0.012296
579.00	0.012384
580.00	0.012219
581.00	0.012457
582.00	0.012403
583.00	0.012210
584.00	0.012170
585.00	0.012025
586.00	0.012180
587.00	0.012131
588.00	0.012277
589.00	0.012101
590.00	0.012340
591.00	0.011961
592.00	0.012068
593.00	0.012189
594.00	0.011896
595.00	0.012065
596.00	0.012067
597.00	0.011913
598.00	0.011966
599.00	0.012037
600.00	0.011952
601.00	0.011797
602.00	0.011815
603.00	0.011897
604.00	0.011839
605.00	0.011891
606.00	0.011834
607.00	0.011862
608.00	0.011811
609.00	0.011598
610.00	0.011697
611.00	0.011790
612.00	0.011690
613.00	0.011619
614.00	0.011545
615.00	0.011591
616.00	0.011453
617.00	0.011592
618.00	0.011497
619.00	0.011535
620.00	0.011519
621.00	0.011364
622.00	0.011472
623.00	0.011533
624.00	0.011747
625.00	0.011464
626.00	0.011396
627.00	0.011545
628.00	0.011562
629.00	0.011439
630.00	0.011534
631.00	0.011383
632.00	0.011510
633.00	0.011584
634.00	0.011358
635.00	0.011196
636.00	0.011386
637.00	0.011435
638.00	0.011453
639.00	0.011615
640.00	0.011304
641.00	0.011327
642.00	0.011440
643.00	0.011507
644.00	0.011155
645.00	0.011023
646.00	0.010982
647.00	0.010972
648.00	0.011056
649.00	0.010841
650.00	0.011252
651.00	0.011376
652.00	0.010805
653.00	0.011185
654.00	0.010995
655.00	0.011089
656.00	0.010974
657.00	0.010899
658.00	0.010872
659.00	0.010827
660.00	0.010942
661.00	0.010851
662.00	0.011120
663.00	0.010858
664.00	0.010750
665.00	0.010938
666.00	0.010575
667.00	0.010593
668.00	0.011044
669.00	0.010849
670.00	0.010637
671.00	0.010486
672.00	0.010885
673.00	0.010537
674.00	0.010670
675.00	0.010919
676.00	0.010497
677.00	0.010877
678.00	0.010448
679.00	0.010506
680.00	0.010749
681.00	0.010556
682.00	0.010509
683.00	0.010555
684.00	0.010535
685.00	0.010700
686.00	0.010436
687.00	0.010627
688.00	0.010466
689.00	0.010380
690.00	0.010115
691.00	0.010279
692.00	0.010783
693.00	0.010226
694.00	0.010311
695.00	0.010345
696.00	0.010479
697.00	0.010004
698.00	0.010178
699.00	0.010129
700.00	0.010086
701.00
702.00
703.00
704.00
705.00
706.00
707.00
708.00
709.00
710.00
711.00
712.00
713.00
714.00
715.00
716.00
717.00
718.00
719.00
720.00
721.00
722.00
723.00
724.00
725.00
726.00
727.00
728.00
729.00
730.00
731.00
732.00
733.00
734.00
735.00
736.00
737.00
738.00
739.00
740.00
741.00
742.00
743.00
744.00
745.00
746.00
747.00
748.00
749.00
750.00
751.00
752.00
753.00
754.00
755.00
756.00
757.00
758.00
759.00
760.00
761.00
762.00
763.00
764.00
765.00
766.00
767.00
768.00
769.00
770.00
771.00
772.00
773.00
774.00
775.00
776.00
777.00
778.00
779.00
780.00
781.00
782.00
783.00
784.00
785.00
786.00
787.00
788.00
789.00
790.00
791.00
792.00
793.00
794.00
795.00
796.00
797.00
798.00
799.00
800.00
801.00
802.00
803.00
804.00
805.00
806.00
807.00
808.00
809.00
810.00
811.00
812.00
813.00
814.00
815.00
816.00
817.00
818.00
819.00
820.00
821.00
822.00
823.00
824.00
825.00
826.00
827.00
828.00
829.00
830.00
831.00
832.00
833.00
834.00
835.00
836.00
837.00
838.00
839.00
840.00
841.00
842.00
843.00
844.00
845.00
846.00
847.00
848.00
849.00
850.00
851.00
852.00
853.00
854.00
855.00
856.00
857.00
858.00
859.00
860.00
861.00
862.00
863.00
864.00
865.00
866.00
867.00
868.00
869.00
870.00
871.00
872.00
873.00
874.00
875.00
876.00
877.00
878.00
879.00
880.00
881.00
882.00
883.00
884.00
885.00
886.00
887.00
888.00
889.00
890.00
891.00
892.00
893.00
894.00
895.00
896.00
897.00
898.00
899.00
900.00