File: phd_uvvis_analysis/PolymerB/PolymerB_0.txt
"RawData"
"Wavelength nm."	"Abs."
200.00
201.00
202.00
203.00
204.00
205.00
206.00
207.00
208.00
209.00
210.00
211.00
212.00
213.00
214.00
215.00
216.00
217.00
218.00
219.00
220.00
221.00
222.00
223.00
224.00
225.00
226.00
227.00
228.00
229.00
230.00
231.00
232.00
233.00
234.00
235.00
236.00
237.00
238.00
239.00
240.00
241.00
242.00
243.00
244.00
245.00
246.00
247.00
248.00
249.00
250.00	3.012454
251.00	2.934102
252.00	2.860760
253.00	2.745860
254.00	2.618893
255.00	2.489981
256.00	2.342834
257.00	2.207279
258.00	2.075887
259.00	1.961316
260.00	1.857236
261.00	1.769952
262.00	1.691860
263.00	1.630943
264.00	1.582310
265.00	1.542212
266.00	1.520259
267.00	1.502694
268.00	1.495712
269.00	1.496041
270.00	1.504289
271.00	1.519301
272.00	1.543880
273.00	1.572237
274.00	1.608253
275.00	1.653473
276.00	1.699732
277.00	1.760790
278.00	1.822580
279.00	1.896122
280.00	1.975085
281.00	2.060873
282.00	2.155271
283.00	2.253989
284.00	2.355835
285.00	2.462089
286.00	2.575041
287.00	2.686629
288.00	2.797515
289.00	2.908091
290.00	3.014184
291.00	3.106205
292.00	3.196489
293.00	3.270963
294.00	3.322907
295.00	3.358131
296.00	3.386799
297.00	3.430764
298.00	3.460656
299.00	3.461116
300.00	3.471988
301.00	3.467999
302.00	3.459977
303.00	3.494043
304.00	3.521548
305.00	3.487245
306.00	3.519503
307.00	3.559266
308.00	3.546367
309.00	3.564302
310.00	3.560078
311.00	3.562899
312.00	3.572838
313.00	3.545015
314.00	3.569739
315.00	3.562621
316.00	3.565955
317.00	3.575599
318.00	3.548116
319.00	3.584085
320.00	3.592474
321.00	3.574962
322.00	3.585095
323.00	3.571442
324.00	3.583409
325.00	3.584164
326.00	3.574215
327.00	3.589063
328.00	3.600412
329.00	3.606140
330.00	3.580368
331.00	3.567469
332.00	3.550970
333.00	3.554751
334.00	3.559770
335.00	3.599906
336.00	3.569147
337.00	3.583253
338.00	3.580111
339.00	3.548952
340.00	3.545025
341.00	3.566826
342.00	3.561695
343.00	3.540215
344.00	3.534464
345.00	3.481330
346.00	3.390595
347.00	3.257121
348.00	3.086194
349.00	2.855123
350.00	2.618458
351.00	2.404998
352.00	2.195329
353.00	2.012880
354.00	1.863844
355.00	1.735481
356.00	1.633530
357.00	1.554569
358.00	1.493964
359.00	1.455667
360.00	1.429148
361.00	1.412684
362.00	1.407178
363.00	1.409966
364.00	1.419656
365.00	1.437140
366.00	1.458345
367.00	1.482368
368.00	1.509960
369.00	1.542379
370.00	1.578591
371.00	1.612804
372.00	1.653228
373.00	1.693133
374.00	1.734810
375.00	1.778099
376.00	1.826532
377.00	1.872683
378.00	1.921965
379.00	1.969357
380.00	2.017685
381.00	2.070433
382.00	2.122693
383.00	2.174767
384.00	2.231633
385.00	2.288074
386.00	2.341496
387.00	2.400764
388.00	2.455245
389.00	2.516833
390.00	2.572698
391.00	2.637787
392.00	2.694602
393.00	2.750056
394.00	2.812255
395.00	2.857941
396.00	2.921568
397.00	2.971140
398.00	3.034448
399.00	3.083272
400.00	3.133240
401.00	3.182537
402.00	3.226825
403.00	3.261101
404.00	3.309101
405.00	3.345359
406.00	3.376005
407.00	3.405107
408.00	3.437697
409.00	3.447657
410.00	3.482420
411.00	3.500191
412.00	3.509139
413.00	3.517999
414.00	3.531898
415.00	3.530268
416.00	3.539942
417.00	3.504709
418.00	3.511544
419.00	3.513972
420.00	3.513003
421.00	3.504043
422.00	3.525284
423.00	3.524834
424.00	3.525871
425.00	3.519296
426.00	3.517521
427.00	3.523287
428.00	3.526747
429.00	3.509896
430.00	3.514382
431.00	3.518903
432.00	3.518185
433.00	3.520429
434.00	3.524376
435.00	3.514367
436.00	3.523382
437.00	3.514933
438.00	3.511591
439.00	3.507693
440.00	3.499507
441.00	3.504170
442.00	3.498027
443.00	3.508529
444.00	3.496672
445.00	3.501443
446.00	3.495525
447.00	3.498660
448.00	3.493344
449.00	3.494308
450.00	3.500442
451.00	3.486043
452.00	3.494182
453.00	3.488251
454.00	3.490208
455.00	3.488506
456.00	3.477278
457.00	3.478229
458.00	3.477075
459.00	3.471453
460.00	3.458008
461.00	3.464328
462.00	3.462251
463.00	3.465426
464.00	3.455271
465.00	3.455873
466.00	3.456236
467.00	3.456052
468.00	3.450864
469.00	3.443887
470.00	3.438550
471.00	3.437637
472.00	3.424729
473.00	3.419885
474.00	3.402755
475.00	3.370698
476.00	3.337480
477.00	3.286405
478.00	3.211813
479.00	3.114747
480.00	2.999063
481.00	2.861341
482.00	2.712164
483.00	2.551337
484.00	2.389817
485.00	2.225170
486.00	2.066624
487.00	1.913384
488.00	1.761638
489.00	1.621168
490.00	1.486520
491.00	1.360482
492.00	1.242255
493.00	1.128888
494.00	1.021903
495.00	0.922943
496.00	0.831430
497.00	0.754452
498.00	0.680463
499.00	0.608612
500.00	0.542870
501.00	0.482649
502.00	0.429403
503.00	0.380352
504.00	0.338102
505.00	0.300017
506.00	0.264891
507.00	0.233457
508.00	0.205391
509.00	0.180702
510.00	0.158269
511.00	0.138743
512.00	0.120489
513.00	0.105052
514.00	0.091690
515.00	0.079798
516.00	0.069438
517.00	0.060233
518.00	0.051992
519.00	0.044764
520.00	0.038395
521.00	0.032936
522.00	0.027840
523.00	0.023993
524.00	0.020270
525.00	0.017164
526.00	0.014139
527.00	0.011928
528.00	0.009785
529.00	0.008252
530.00	0.006633
531.00	0.004995
532.00	0.004177
533.00	0.003050
534.00	0.002152
535.00	0.001172
536.00	0.000680
537.00	-0.000704
538.00	-0.001272
539.00	-0.001582
540.00	-0.002107
541.00	-0.002082
542.00	-0.002463
543.00	-0.002537
544.00	-0.002813
545.00	-0.002807
546.00	-0.003014
547.00	-0.003357
548.00	-0.003383
549.00	-0.003344
550.00	-0.003290
551.00	-0.003536
552.00	-0.003584
553.00	-0.003606
554.00	-0.003809
555.00	-0.003687
556.00	-0.003673
557.00	-0.003679
558.00	-0.003618
559.00	-0.003795
560.00	-0.003506
561.00	-0.003643
562.00	-0.003659
563.00	-0.003711
564.00	-0.003412
565.00	-0.003674
566.00	-0.003399
567.00	-0.003532
568.00	-0.003392
569.00	-0.003426
570.00	-0.003492
571.00	-0.003603
572.00	-0.003518
573.00	-0.003606
574.00	-0.003448
575.00	-0.003369
576.00	-0.003792
577.00	-0.003505
578.00	-0.003683
579.00	-0.003458
580.00	-0.003576
581.00	-0.003514
582.00	-0.003457
583.00	-0.003334
584.00	-0.003453
585.00	-0.003239
586.00	-0.003303
587.00	-0.003331
588.00	-0.003192
589.00	-0.003297
590.00	-0.003247
591.00	-0.002930
592.00	-0.003247
593.00	-0.003054
594.00	-0.002827
595.00	-0.003101
596.00	-0.002966
597.00	-0.002993
598.00	-0.003080
599.00	-0.002900
600.00	-0.003085
601.00	-0.002753
602.00	-0.002711
603.00	-0.003031
604.00	-0.002791
605.00	-0.002643
606.00	-0.002814
607.00	-0.002684
608.00	-0.002808
609.00	-0.002723
610.00	-0.002711
611.00	-0.002666
612.00	-0.002805
613.00	-0.002475
614.00	-0.002715
615.00	-0.002359
616.00	-0.002493
617.00	-0.002529
618.00	-0.002549
619.00	-0.002315
620.00	-0.002507
621.00	-0.002314
622.00	-0.002286
623.00	-0.002103
624.00	-0.002280
625.00	-0.002273
626.00	-0.002047
627.00	-0.002169
628.00	-0.001865
629.00	-0.001853
630.00	-0.001906
631.00	-0.002044
632.00	-0.001848
633.00	-0.001872
634.00	-0.001829
635.00	-0.001973
636.00	-0.001725
637.00	-0.002024
638.00	-0.001697
639.00	-0.001732
640.00	-0.001760
641.00	-0.001794
642.00	-0.001529
643.00	-0.001503
644.00	-0.001794
645.00	-0.001569
646.00	-0.001577
647.00	-0.001363
648.00	-0.001646
649.00	-0.001521
650.00	-0.001573
651.00	-0.001445
652.00	-0.001458
653.00	-0.001477
654.00	-0.001536
655.00	-0.001419
656.00	-0.001148
657.00	-0.001340
658.00	-0.001204
659.00	-0.001091
660.00	-0.001401
661.00	-0.001093
662.00	-0.001138
663.00	-0.001087
664.00	-0.001176
665.00	-0.000979
666.00	-0.000982
667.00	-0.000953
668.00	-0.000925
669.00	-0.001107
670.00	-0.000993
671.00	-0.000983
672.00	-0.000980
673.00	-0.000901
674.00	-0.001033
675.00	-0.001228
676.00	-0.000927
677.00	-0.001053
678.00	-0.000917
679.00	-0.000846
680.00	-0.000646
681.00	-0.000836
682.00	-0.000742
683.00	-0.000887
684.00	-0.000503
685.00	-0.000586
686.00	-0.000434
687.00	-0.000301
688.00	-0.000184
689.00	-0.000254
690.00	-0.000250
691.00	-0.000613
692.00	-0.000327
693.00	-0.000444
694.00	-0.000510
695.00	-0.000101
696.00	-0.000183
697.00	-0.000404
698.00	0.000030
699.00	-0.000031
700.00	-0.000108
701.00
702.00
703.00
704.00
705.00
706.00
707.00
708.00
709.00
710.00
711.00
712.00
713.00
714.00
715.00
716.00
717.00
718.00
719.00
720.00
721.00
722.00
723.00
724.00
725.00
726.00
727.00
728.00
729.00
730.00
731.00
732.00
733.00
734.00
735.00
736.00
737.00
738.00
739.00
740.00
741.00
742.00
743.00
744.00
745.00
746.00
747.00
748.00
749.00
750.00
751.00
752.00
753.00
754.00
755.00
756.00
757.00
758.00
759.00
760.00
761.00
762.00
763.00
764.00
765.00
766.00
767.00
768.00
769.00
770.00
771.00
772.00
773.00
774.00
775.00
776.00
777.00
778.00
779.00
780.00
781.00
782.00
783.00
784.00
785.00
786.00
787.00
788.00
789.00
790.00
791.00
792.00
793.00
794.00
795.00
796.00
797.00
798.00
799.00
800.00
801.00
802.00
803.00
804.00
805.00
806.00
807.00
808.00
809.00
810.00
811.00
812.00
813.00
814.00
815.00
816.00
817.00
818.00
819.00
820.00
821.00
822.00
823.00
824.00
825.00
826.00
827.00
828.00
829.00
830.00
831.00
832.00
833.00
834.00
835.00
836.00
837.00
838.00
839.00
840.00
841.00
842.00
843.00
844.00
845.00
846.00
847.00
848.00
849.00
850.00
851.00
852.00
853.00
854.00
855.00
856.00
857.00
858.00
859.00
860.00
861.00
862.00
863.00
864.00
865.00
866.00
867.00
868.00
869.00
870.00
871.00
872.00
873.00
874.00
875.00
876.00
877.00
878.00
879.00
880.00
881.00
882.00
883.00
884.00
885.00
886.00
887.00
888.00
889.00
890.00
891.00
892.00
893.00
894.00
895.00
896.00
897.00
898.00
899.00
900.00