File: phd_uvvis_analysis/PolymerB/PolymerB_3.txt
"RawData"
"Wavelength nm."	"Abs."
200.00
201.00
202.00
203.00
204.00
205.00
206.00
207.00
208.00
209.00
210.00
211.00
212.00
213.00
214.00
215.00
216.00
217.00
218.00
219.00
220.00
221.00
222.00
223.00
224.00
225.00
226.00
227.00
228.00
229.00
230.00
231.00
232.00
233.00
234.00
235.00
236.00
237.00
238.00
239.00
240.00
241.00
242.00
243.00
244.00
245.00
246.00
247.00
248.00
249.00
250.00	0.130520
251.00	0.125428
252.00	0.119339
253.00	0.113009
254.00	0.105491
255.00	0.098786
256.00	0.090720
257.00	0.083530
258.00	0.077051
259.00	0.070138
260.00	0.064967
261.00	0.060629
262.00	0.056805
263.00	0.054263
264.00	0.051254
265.00	0.049996
266.00	0.048807
267.00	0.048627
268.00	0.048442
269.00	0.048464
270.00	0.048727
271.00	0.050066
272.00	0.051322
273.00	0.052390
274.00	0.054492
275.00	0.056244
276.00	0.058103
277.00	0.061311
278.00	0.063778
279.00	0.066944
280.00	0.071343
281.00	0.074334
282.00	0.078374
283.00	0.083608
284.00	0.088210
285.00	0.093311
286.00	0.099243
287.00	0.104977
288.00	0.110385
289.00	0.116627
290.00	0.124169
291.00	0.130905
292.00	0.139392
293.00	0.147128
294.00	0.155888
295.00	0.164711
296.00	0.172712
297.00	0.181028
298.00	0.189359
299.00	0.197345
300.00	0.204650
301.00	0.212919
302.00	0.222438
303.00	0.230775
304.00	0.238368
305.00	0.246708
306.00	0.255734
307.00	0.262256
308.00	0.266818
309.00	0.273190
310.00	0.277941
311.00	0.281274
312.00	0.283627
313.00	0.285517
314.00	0.286019
315.00	0.286164
316.00	0.287588
317.00	0.289492
318.00	0.292475
319.00	0.297004
320.00	0.296419
321.00	0.295832
322.00	0.294447
323.00	0.287175
324.00	0.281833
325.00	0.277038
326.00	0.272770
327.00	0.268445
328.00	0.266766
329.00	0.263594
330.00	0.264107
331.00	0.262458
332.00	0.262501
333.00	0.262667
334.00	0.262968
335.00	0.261080
336.00	0.259452
337.00	0.256702
338.00	0.251605
339.00	0.244525
340.00	0.236601
341.00	0.227512
342.00	0.214393
343.00	0.203139
344.00	0.188207
345.00	0.172418
346.00	0.158560
347.00	0.142317
348.00	0.128600
349.00	0.115175
350.00	0.102245
351.00	0.090939
352.00	0.081563
353.00	0.072815
354.00	0.065702
355.00	0.059552
356.00	0.054658
357.00	0.051372
358.00	0.047992
359.00	0.046488
360.00	0.045490
361.00	0.044906
362.00	0.044521
363.00	0.044651
364.00	0.045265
365.00	0.046485
366.00	0.047149
367.00	0.048731
368.00	0.049874
369.00	0.051059
370.00	0.053389
371.00	0.054477
372.00	0.056736
373.00	0.058224
374.00	0.059782
375.00	0.061840
376.00	0.064322
377.00	0.066520
378.00	0.068559
379.00	0.070973
380.00	0.073152
381.00	0.075576
382.00	0.078350
383.00	0.080703
384.00	0.083309
385.00	0.085476
386.00	0.088689
387.00	0.090935
388.00	0.094618
389.00	0.096735
390.00	0.099817
391.00	0.102927
392.00	0.106245
393.00	0.109178
394.00	0.112502
395.00	0.115517
396.00	0.118484
397.00	0.122105
398.00	0.125314
399.00	0.128568
400.00	0.132040
401.00	0.135724
402.00	0.139110
403.00	0.143551
404.00	0.147130
405.00	0.151150
406.00	0.154656
407.00	0.158498
408.00	0.162841
409.00	0.166688
410.00	0.170710
411.00	0.174872
412.00	0.179566
413.00	0.183751
414.00	0.187931
415.00	0.192067
416.00	0.196683
417.00	0.201245
418.00	0.205606
419.00	0.210417
420.00	0.214831
421.00	0.219105
422.00	0.223433
423.00	0.227784
424.00	0.231790
425.00	0.236570
426.00	0.240697
427.00	0.244871
428.00	0.249281
429.00	0.252983
430.00	0.257209
431.00	0.261577
432.00	0.265469
433.00	0.269056
434.00	0.272832
435.00	0.276273
436.00	0.279474
437.00	0.283014
438.00	0.285924
439.00	0.288618
440.00	0.291287
441.00	0.293954
442.00	0.295981
443.00	0.297879
444.00	0.300155
445.00	0.301514
446.00	0.302700
447.00	0.304072
448.00	0.305091
449.00	0.305421
450.00	0.305461
451.00	0.305065
452.00	0.304680
453.00	0.303829
454.00	0.302685
455.00	0.301224
456.00	0.299111
457.00	0.296445
458.00	0.293062
459.00	0.290222
460.00	0.286350
461.00	0.281768
462.00	0.276868
463.00	0.271697
464.00	0.266295
465.00	0.259890
466.00	0.253241
467.00	0.245764
468.00	0.238228
469.00	0.230662
470.00	0.222049
471.00	0.214150
472.00	0.205234
473.00	0.196561
474.00	0.187536
475.00	0.178207
476.00	0.168750
477.00	0.159767
478.00	0.150716
479.00	0.141438
480.00	0.132204
481.00	0.123247
482.00	0.114689
483.00	0.105991
484.00	0.097994
485.00	0.089971
486.00	0.082579
487.00	0.075227
488.00	0.068759
489.00	0.062160
490.00	0.056323
491.00	0.050405
492.00	0.044908
493.00	0.040303
494.00	0.035064
495.00	0.030782
496.00	0.026532
497.00	0.023036
498.00	0.019909
499.00	0.016702
500.00	0.013715
501.00	0.011172
502.00	0.008654
503.00	0.006617
504.00	0.004847
505.00	0.002986
506.00	0.001442
507.00	0.000019
508.00	-0.000912
509.00	-0.002241
510.00	-0.003115
511.00	-0.003881
512.00	-0.004983
513.00	-0.005286
514.00	-0.005923
515.00	-0.006660
516.00	-0.006977
517.00	-0.007449
518.00	-0.007802
519.00	-0.007831
520.00	-0.008041
521.00	-0.008520
522.00	-0.008694
523.00	-0.008558
524.00	-0.008758
525.00	-0.008652
526.00	-0.008895
527.00	-0.008757
528.00	-0.008842
529.00	-0.008898
530.00	-0.008906
531.00	-0.008786
532.00	-0.008907
533.00	-0.008936
534.00	-0.009054
535.00	-0.008787
536.00	-0.008887
537.00	-0.009561
538.00	-0.009710
539.00	-0.009474
540.00	-0.009791
541.00	-0.009367
542.00	-0.009579
543.00	-0.009287
544.00	-0.009260
545.00	-0.009381
546.00	-0.009090
547.00	-0.009125
548.00	-0.008952
549.00	-0.009284
550.00	-0.008890
551.00	-0.009032
552.00	-0.008987
553.00	-0.008844
554.00	-0.009075
555.00	-0.009007
556.00	-0.008739
557.00	-0.008815
558.00	-0.008498
559.00	-0.008625
560.00	-0.008436
561.00	-0.008674
562.00	-0.008494
563.00	-0.008640
564.00	-0.008202
565.00	-0.008372
566.00	-0.008246
567.00	-0.008338
568.00	-0.008139
569.00	-0.008304
570.00	-0.008233
571.00	-0.008523
572.00	-0.008245
573.00	-0.008037
574.00	-0.008187
575.00	-0.008146
576.00	-0.008029
577.00	-0.007973
578.00	-0.007990
579.00	-0.008051
580.00	-0.007919
581.00	-0.007789
582.00	-0.007777
583.00	-0.007687
584.00	-0.007735
585.00	-0.007562
586.00	-0.007603
587.00	-0.007416
588.00	-0.007410
589.00	-0.007353
590.00	-0.007252
591.00	-0.007162
592.00	-0.007090
593.00	-0.007195
594.00	-0.006744
595.00	-0.007186
596.00	-0.006972
597.00	-0.006958
598.00	-0.006973
599.00	-0.006913
600.00	-0.006764
601.00
602.00
603.00
604.00
605.00
606.00
607.00
608.00
609.00
610.00
611.00
612.00
613.00
614.00
615.00
616.00
617.00
618.00
619.00
620.00
621.00
622.00
623.00
624.00
625.00
626.00
627.00
628.00
629.00
630.00
631.00
632.00
633.00
634.00
635.00
636.00
637.00
638.00
639.00
640.00
641.00
642.00
643.00
644.00
645.00
646.00
647.00
648.00
649.00
650.00
651.00
652.00
653.00
654.00
655.00
656.00
657.00
658.00
659.00
660.00
661.00
662.00
663.00
664.00
665.00
666.00
667.00
668.00
669.00
670.00
671.00
672.00
673.00
674.00
675.00
676.00
677.00
678.00
679.00
680.00
681.00
682.00
683.00
684.00
685.00
686.00
687.00
688.00
689.00
690.00
691.00
692.00
693.00
694.00
695.00
696.00
697.00
698.00
699.00
700.00
701.00
702.00
703.00
704.00
705.00
706.00
707.00
708.00
709.00
710.00
711.00
712.00
713.00
714.00
715.00
716.00
717.00
718.00
719.00
720.00
721.00
722.00
723.00
724.00
725.00
726.00
727.00
728.00
729.00
730.00
731.00
732.00
733.00
734.00
735.00
736.00
737.00
738.00
739.00
740.00
741.00
742.00
743.00
744.00
745.00
746.00
747.00
748.00
749.00
750.00
751.00
752.00
753.00
754.00
755.00
756.00
757.00
758.00
759.00
760.00
761.00
762.00
763.00
764.00
765.00
766.00
767.00
768.00
769.00
770.00
771.00
772.00
773.00
774.00
775.00
776.00
777.00
778.00
779.00
780.00
781.00
782.00
783.00
784.00
785.00
786.00
787.00
788.00
789.00
790.00
791.00
792.00
793.00
794.00
795.00
796.00
797.00
798.00
799.00
800.00
801.00
802.00
803.00
804.00
805.00
806.00
807.00
808.00
809.00
810.00
811.00
812.00
813.00
814.00
815.00
816.00
817.00
818.00
819.00
820.00
821.00
822.00
823.00
824.00
825.00
826.00
827.00
828.00
829.00
830.00
831.00
832.00
833.00
834.00
835.00
836.00
837.00
838.00
839.00
840.00
841.00
842.00
843.00
844.00
845.00
846.00
847.00
848.00
849.00
850.00
851.00
852.00
853.00
854.00
855.00
856.00
857.00
858.00
859.00
860.00
861.00
862.00
863.00
864.00
865.00
866.00
867.00
868.00
869.00
870.00
871.00
872.00
873.00
874.00
875.00
876.00
877.00
878.00
879.00
880.00
881.00
882.00
883.00
884.00
885.00
886.00
887.00
888.00
889.00
890.00
891.00
892.00
893.00
894.00
895.00
896.00
897.00
898.00
899.00
900.00